Folder: Depth_Of_Discharge_Project/Battery1/Input

Note: README.md
This program was written in conjunction with the publication ''Roby Gauthier et al 2022 J. Electrochem. Soc. 169 020518'',
which can be found at https://iopscience.iop.org/article/10.1149/1945-7111/ac4b82/meta.

File: 66824_QC.txt
RBG_CYC_66824_Nw_c0_41V_40C_C10C10_170627_622BNG_VC211_100DOD_127 (155723 Points)
Cycle Number	Capacity (mAh)
1	0
5	46.9
8	93.8
12	117.3
15	187.6
19	211.1
23	13.4
26	80.4
30	103.8
33	177.6
37	3.4
41	43.5
44	134
48	184.3
52	12.7
55	100.5
59	140.7
62	207.7
66	57
70	100.5
73	194.3
77	50.3
81	113.9
84	206.2
88	80.4
92	150.8
96	16.8
99	134
103	197.7
107	53.6
110	167.5
114	20.1
118	83.8
121	194.3
125	53.6
129	117.3
133	0.4
136	113.9
140	201
144	80.4
147	201
151	97.2
155	187.6
159	80.4
162	201
166	100.5
170	187.6
174	73.7
177	197.7
181	90.5
185	177.6
189	60.3
192	193
196	80.4
200	174.2
204	77
208	1.7
211	144.1
215	50.3
219	160.8
223	67
227	0
230	137.3
234	57
238	177.6
242	93.8
246	6.7
249	160.8
253	67
257	184.3
261	90.5
265	6.1
268	157.4
272	67
276	180.9
280	87.1
284	6.1
287	174.2
291	107.2
295	40.2
299	174.2
303	107.2
307	40.2
311	0
314	157.4
318	90.5
322	26.8
326	174.2
330	120.6
334	63.6
338	6.1
341	180.9
345	113.9
349	57
353	194.3
357	127.3
361	60.3
365	4.6
368	177.6
372	110.5
376	43.5
380	177.6
384	113.9
388	73.7
392	33.5
396	4.6
399	189.1
403	160.8
407	120.6
411	70.3
415	23.4
419	184.3
423	144.1
427	103.8
431	60.3
435	10.1
438	187.6
442	147.4
446	97.2
450	46.9
454	0
458	144.1
462	90.5
466	36.9
470	1.8
473	177.6
477	127.3
481	77
485	23.4
489	174.2
493	137.3
497	110.5
501	83.8
505	57
509	30.1
513	8.6
517	0.4
520	184.3
524	167.5
528	144.1
532	130.7
536	117.3
540	103.8
544	80.4
548	53.6
552	26.8
556	2.9
560	170.8
564	144.1
568	120.6
572	100.5
576	73.7
580	46.9
584	20.1
588	4.6
591	187.6
595	179.6
599	157.4
603	130.7
607	103.8
611	77
615	50.3
619	26.8
623	10.1
627	10.1
631	10.1
635	10.1
639	10.1
643	10.1
647	10.1
651	10.1
655	10.1
659	10.1
663	10.1
667	13.4
671	20.1
675	33.5
679	46.9
683	57
687	63.6
691	67
695	67
699	67
703	67
707	67
711	67
715	67
719	73.7
723	73.7
727	73.7
731	73.7
735	73.7
739	73.7
743	73.7
747	73.7
751	77
755	77
759	77
763	77
767	80.4
771	87.1
775	87.1
779	93.8
783	120.6
787	147.4
791	170.8
795	182
800	3.4
804	16.8
808	43.5
812	70.3
816	97.2
820	124
824	150.8
828	177.6
832	16.8
836	57
840	97.2
844	137.3
848	173.1
852	182.2
857	6.1
861	23.4
865	50.3
869	77
873	107.2
877	144.1
881	170.8
885	6.7
889	33.5
893	60.3
897	87.1
901	113.9
905	137.3
909	160.8
913	175.8
918	0.4
922	8.6
926	30.1
930	63.6
934	117.3
938	170.8
942	36.9
946	90.5
950	144.1
954	178.6
959	16.8
963	70.3
967	124
971	177.6
975	43.5
979	100.5
983	157.4
988	4.6
992	60.3
996	127.3
1000	6.7
1004	60.3
1008	113.9
1012	166.9
1017	2.6
1021	46.9
1025	110.5
1029	164.2
1033	30.1
1037	83.8
1041	137.3
1045	175.4
1050	12.6
1054	63.6
1058	117.3
1062	170.8
1066	33.5
1070	87.1
1074	140.7
1078	175.3
1083	20.1
1087	87.1
1091	167.5
1095	63.6
1099	144.1
1104	4.6
1108	73.7
1112	154.1
1116	50.3
1120	130.7
1125	1
1129	67
1133	160.8
1137	70.3
1141	163.7
1146	30.1
1150	120.6
1154	16.8
1158	97.2
1162	169.3
1167	26.8
1171	110.5
1175	10.1
1179	103.8
1181	87.8